Folder: XRD-AI/Dane/Gr04/Grupa03/Raw

File: Magnetyt_komercyjny.xy
! XYN file created by WinPLOTR
! Initial file:   C:\!Dane\XRD_Lukasz\2021\LFCS\Grupa03\Raw\Magnetyt_raw.xrdml
! Initial format:  13
! WAVE (A):      1.54060     1.54060     1.00000
! X_data : 2 Theta (deg.)
! Y_data : Intensity (arb. units)
!--------------------------------------------------------------------------------
!            X_1 Magnetyt_raw.xr
        10.01671       203
        10.31751       194
        10.61832       186
        10.91912       184
        11.21992       169
        11.52073       157
        11.82153       161
        12.12233       154
        12.42313       132
        12.72394       129
        13.02474       133
        13.32554       123
        13.62635       123
        13.92715       128
        14.22795       109
        14.52875       121
        14.82956        90.00000
        15.13036       110
        15.43116       130
        15.73197        82.00000
        16.03277        79.00000
        16.33357        96.00000
        16.63437        88.00000
        16.93518        76.00000
        17.23598        96.00000
        17.53678        99.00000
        17.83759        87.00000
        18.13839        94.00000
        18.43919        90.00000
        18.73999        91.00000
        19.04080        73.00000
        19.34160        70.00000
        19.64240        72.00000
        19.94320        63.00000
        20.24401        72.00000
        20.54481        51.00000
        20.84561        58.00000
        21.14642        60.00000
        21.44722        58.00000
        21.74802        60.00000
        22.04882        47.00000
        22.34963        56.00000
        22.65043        59.00000
        22.95123        64.00000
        23.25204        50.00000
        23.55284        66.00000
        23.85364        42.00000
        24.15444        50.00000
        24.45525        54.00000
        24.75605        36.00000
        25.05685        46.00000
        25.35766        59.00000
        25.65846        41.00000
        25.95926        41.00000
        26.26007        39.00000
        26.56087        34.00000
        26.86167        44.00000
        27.16247        43.00000
        27.46328        44.00000
        27.76408        32.00000
        28.06488        37.00000
        28.36568        36.00000
        28.66649        38.00000
        28.96729        38.00000
        29.26809        47.00000
        29.56890        44.00000
        29.86970        56.00000
        30.17050       360
        30.47130        32.00000
        30.77211        37.00000
        31.07291        29.00000
        31.37371        33.00000
        31.67451        33.00000
        31.97532        33.00000
        32.27612        35.00000
        32.57692        24.00000
        32.87773        20.00000
        33.17853        51.00000
        33.47933        38.00000
        33.78014        45.00000
        34.08094        39.00000
        34.38174        31.00000
        34.68254        34.00000
        34.98335        32.00000
        35.28415       232
        35.58495       452
        35.88575        46.00000
        36.18656        38.00000
        36.48736        25.00000
        36.78816        34.00000
        37.08897       137
        37.38977        30.00000
        37.69057        23.00000
        37.99137        19.00000
        38.29218        17.00000
        38.59298        24.00000
        38.89378        28.00000
        39.19459        12.00000
        39.49539        20.00000
        39.79619        21.00000
        40.09700        25.00000
        40.39780        19.00000
        40.69860        16.00000
        40.99940        29.00000
        41.30021        20.00000
        41.60101        28.00000
        41.90181        21.00000
        42.20261        25.00000
        42.50342        22.00000
        42.80422        38.00000
        43.10502       303
        43.40583        28.00000
        43.70663        25.00000
        44.00743        20.00000
        44.30824        18.00000
        44.60904        24.00000
        44.90984        11.00000
        45.21064         9.00000
        45.51144        19.00000
        45.81225        11.00000
        46.11305        16.00000
        46.41385        14.00000
        46.71466        15.00000
        47.01546        28.00000
        47.31626        16.00000
        47.61707        15.00000
        47.91787        10.00000
        48.21867        12.00000
        48.51947         8.00000
        48.82028        20.00000
        49.12108         8.00000
        49.42188        16.00000
        49.72269        16.00000
        50.02349        16.00000
        50.32429        11.00000
        50.62510        11.00000
        50.92590        17.00000
        51.22670        25.00000
        51.52750        11.00000
        51.82830        15.00000
        52.12911        10.00000
        52.42991        21.00000
        52.73071        14.00000
        53.03152        22.00000
        53.33232        78.00000
        53.63312        55.00000
        53.93393        19.00000
        54.23473        14.00000
        54.53553        18.00000
        54.83633        20.00000
        55.13713        10.00000
        55.43794        15.00000
        55.73874        14.00000
        56.03954        16.00000
        56.34035        21.00000
        56.64115        38.00000
        56.94195       608
        57.24276        69.00000
        57.54356        24.00000
        57.84436        16.00000
        58.14516        18.00000
        58.44597        12.00000
        58.74677        20.00000
        59.04757        20.00000
        59.34838        17.00000
        59.64918        46.00000
        59.94998        17.00000
        60.25079         9.00000
        60.55159        21.00000
        60.85239        22.00000
        61.15319        16.00000
        61.45399        17.00000
        61.75480        19.00000
        62.05560        22.00000
        62.35640        96.00000
        62.65721       418
        62.95801        41.00000
        63.25881        38.00000
        63.55962        19.00000
        63.86042        25.00000
        64.16122        18.00000
        64.46202        11.00000
        64.76283         8.00000
        65.06363        12.00000
        65.36443         6.00000
        65.66524        24.00000
        65.96604        20.00000
        66.26684         9.00000
        66.56764        14.00000
        66.86845        19.00000
        67.16925        15.00000
        67.47005        17.00000
        67.77086        16.00000
        68.07166        15.00000
        68.37246        11.00000
        68.67326        10.00000
        68.97407         9.00000
        69.27487         7.00000
        69.57568        12.00000
        69.87647        19.00000
        70.17728         9.00000
        70.47808        15.00000
        70.77888        22.00000
        71.07969        36.00000
        71.38049        18.00000
        71.68129        17.00000
        71.98209        17.00000
        72.28290        12.00000
        72.58370         5.00000
        72.88451         9.00000
        73.18530         7.00000
        73.48611        18.00000
        73.78691        18.00000
        74.08772        61.00000
        74.38852        16.00000
        74.68932        21.00000
        74.99012        70.00000
        75.29092        16.00000
        75.59173        15.00000
        75.89253         8.00000
        76.19334        10.00000
        76.49414         4.00000
        76.79494        17.00000
        77.09574        11.00000
        77.39655        14.00000
        77.69735        12.00000
        77.99815        10.00000
        78.29896        10.00000
        78.59975        19.00000
        78.90056       115
        79.20136        41.00000
        79.50217        16.00000
        79.80297         8.00000
        80.10378         8.00000
        80.40457        12.00000
        80.70538        17.00000
        81.00618         7.00000
        81.30698         7.00000
        81.60779         9.00000
        81.90859        16.00000
        82.20939        14.00000
        82.51019        15.00000
        82.81100        14.00000
        83.11180        14.00000
        83.41261        12.00000
        83.71341         8.00000
        84.01421        12.00000
        84.31501        15.00000
        84.61581        11.00000
        84.91662        17.00000
        85.21742        11.00000
        85.51822        18.00000
        85.81902        16.00000
        86.11983        11.00000
        86.42063        14.00000
        86.72144        66.00000
        87.02224        35.00000
        87.32304        16.00000
        87.62384        18.00000
        87.92464        15.00000
        88.22545         7.00000
        88.52625        12.00000
        88.82706        10.00000
        89.12785        14.00000
        89.42866        39.00000
        89.72946        81.00000
        90.03027        51.00000
        90.33107        19.00000
        90.63187        20.00000
        90.93267        15.00000
        91.23347        15.00000
        91.53428        15.00000
        91.83508        11.00000
        92.13589         7.00000
        92.43669        11.00000
        92.73749        10.00000
        93.03829        14.00000
        93.33910        12.00000
        93.63990         8.00000
        93.94070        12.00000
        94.24151        22.00000
        94.54230        54.00000
        94.84311        31.00000
        95.14391        19.00000
        95.44472         9.00000
        95.74552        16.00000
        96.04632        11.00000
        96.34712        15.00000
        96.64793         6.00000
        96.94873        12.00000
        97.24953        18.00000
        97.55034        16.00000
        97.85114        16.00000
        98.15194         9.00000
        98.45274        14.00000
        98.75355        14.00000
        99.05435        12.00000
        99.35516        11.00000
        99.65595        21.00000
        99.95676        15.00000
        99.99018        15.00000